Folder: graduate/graduate/数据/xrd/高森-xrd/001

Note: README.md
# graduate
高森的毕业论文

File: 001-qw-B-2024-T3.txt
# Data      [ Total No. = 4001 ]
  <2Theta>   <   I   >
    10.0000        24
    10.2800        10
    10.5600        16
    10.8400        26
    11.1200        16
    11.4000        18
    11.6800        16
    11.9600        10
    12.2400        14
    12.5200        12
    12.8000        10
    13.0800        14
    13.3600        16
    13.6400        12
    13.9200        12
    14.2000         8
    14.4800        14
    14.7600        14
    15.0400        10
    15.3200        10
    15.6000         8
    15.8800        18
    16.1600        16
    16.4400        12
    16.7200        14
    17.0000         8
    17.2800         8
    17.5600        16
    17.8400        14
    18.1200        14
    18.4000        22
    18.6800        16
    18.9600        14
    19.2400        20
    19.5200        20
    19.8000        10
    20.0800        14
    20.3600        16
    20.6400        14
    20.9200        18
    21.2000         8
    21.4800        12
    21.7600         6
    22.0400        18
    22.3200        12
    22.6000        12
    22.8800        14
    23.1600        10
    23.4400        12
    23.7200        12
    24.0000        14
    24.2800        16
    24.5600        12
    24.8400         8
    25.1200        12
    25.4000        18
    25.6800        10
    25.9600        22
    26.2400        16
    26.5200        12
    26.8000        12
    27.0800        14
    27.3600        12
    27.6400         6
    27.9200        12
    28.2000         8
    28.4800        16
    28.7600        12
    29.0400        12
    29.3200        14
    29.6000        12
    29.8800        18
    30.1600        16
    30.4400        20
    30.7200        20
    31.0000        26
    31.2800        18
    31.5600        14
    31.8400        16
    32.1200        12
    32.4000        16
    32.6800        18
    32.9600        24
    33.2400        18
    33.5200        16
    33.8000        10
    34.0800        12
    34.3600        18
    34.6400        16
    34.9200        10
    35.2000        12
    35.4800        16
    35.7600        20
    36.0400        22
    36.3200        32
    36.6000        36
    36.8800        22
    37.1600        26
    37.4400        56
    37.7200        44
    38.0000        42
    38.2800       124
    38.5600       394
    38.8400        44
    39.1200        14
    39.4000        26
    39.6800        20
    39.9600        12
    40.2400        22
    40.5200        20
    40.8000        20
    41.0800        12
    41.3600        12
    41.6400        18
    41.9200        16
    42.2000        22
    42.4800        20
    42.7600        22
    43.0400        30
    43.3200        22
    43.6000        32
    43.8800        60
    44.1600        76
    44.4400        98
    44.7200       238
    45.0000        70
    45.2800        34
    45.5600        40
    45.8400        42
    46.1200        16
    46.4000         6
    46.6800        10
    46.9600        16
    47.2400        14
    47.5200        14
    47.8000        20
    48.0800        12
    48.3600        16
    48.6400        16
    48.9200         6
    49.2000         8
    49.4800         6
    49.7600         8
    50.0400        12
    50.3200        12
    50.6000         6
    50.8800         8
    51.1600        12
    51.4400        16
    51.7200        10
    52.0000        16
    52.2800        14
    52.5600        10
    52.8400        10
    53.1200        12
    53.4000        12
    53.6800         6
    53.9600        10
    54.2400        12
    54.5200        14
    54.8000        10
    55.0800        16
    55.3600        16
    55.6400         6
    55.9200        16
    56.2000        18
    56.4800        18
    56.7600        10
    57.0400         8
    57.3200         8
    57.6000        16
    57.8800         6
    58.1600        16
    58.4400        10
    58.7200        26
    59.0000        10
    59.2800        14
    59.5600        16
    59.8400        16
    60.1200        12
    60.4000        24
    60.6800        26
    60.9600         8
    61.2400        10
    61.5200        10
    61.8000        12
    62.0800         6
    62.3600        12
    62.6400        14
    62.9200         6
    63.2000        14
    63.4800        12
    63.7600         8
    64.0400        22
    64.3200        16
    64.6000        36
    64.8800        72
    65.1600       134
    65.4400        54
    65.7200        20
    66.0000        24
    66.2800        22
    66.5600        22
    66.8400        28
    67.1200        18
    67.4000        12
    67.6800        12
    67.9600        20
    68.2400        12
    68.5200         8
    68.8000        16
    69.0800        10
    69.3600        14
    69.6400        12
    69.9200         4
    70.2000        14
    70.4800        14
    70.7600        10
    71.0400         8
    71.3200         4
    71.6000        14
    71.8800        10
    72.1600        12
    72.4400        12
    72.7200         8
    73.0000         6
    73.2800        12
    73.5600        10
    73.8400        12
    74.1200        10
    74.4000        12
    74.6800        18
    74.9600         8
    75.2400        16
    75.5200         6
    75.8000        10
    76.0800         8
    76.3600        14
    76.6400        10
    76.9200        12
    77.2000        18
    77.4800        12
    77.7600        26
    78.0400        96
    78.3200       102
    78.6000        58
    78.8800        22
    79.1600        10
    79.4400        14
    79.7200        14
    80.0000        16
    80.2800         2
    80.5600        14
    80.8400        14
    81.1200        18
    81.4000        22
    81.6800        12
    81.9600        18
    82.2400        38
    82.5200        26
    82.8000        26
    83.0800        10
    83.3600        10
    83.6400        10
    83.9200        18
    84.2000         8
    84.4800        14
    84.7600         6
    85.0400        14
    85.3200         8
    85.6000        10
    85.8800         4
    86.1600         4
    86.4400        12
    86.7200        12
    87.0000        10
    87.2800        10
    87.5600        16
    87.8400        14
    88.1200        10
    88.4000         8
    88.6800        16
    88.9600         8
    89.2400        10
    89.5200        10
    89.8000        12
    90.0000         8