Folder: graduate/graduate/数据/xrd/高森-xrd/005

Note: README.md
# graduate
高森的毕业论文

File: 005-lyx-B-2024-T4.txt
# Data      [ Total No. = 4001 ]
  <2Theta>   <   I   >
    10.0000        18
    10.2800        18
    10.5600        20
    10.8400        20
    11.1200        22
    11.4000        16
    11.6800        24
    11.9600        22
    12.2400        18
    12.5200        18
    12.8000        16
    13.0800        12
    13.3600        14
    13.6400        22
    13.9200        18
    14.2000        16
    14.4800        12
    14.7600        14
    15.0400        10
    15.3200        16
    15.6000        14
    15.8800        12
    16.1600        12
    16.4400        16
    16.7200        12
    17.0000        10
    17.2800        10
    17.5600        14
    17.8400        12
    18.1200        16
    18.4000        16
    18.6800        24
    18.9600        14
    19.2400        26
    19.5200        14
    19.8000        12
    20.0800        16
    20.3600        16
    20.6400        14
    20.9200        10
    21.2000        16
    21.4800        10
    21.7600        20
    22.0400        16
    22.3200        14
    22.6000        10
    22.8800        20
    23.1600        16
    23.4400        12
    23.7200        12
    24.0000         2
    24.2800        16
    24.5600        14
    24.8400        14
    25.1200        16
    25.4000        10
    25.6800        16
    25.9600        12
    26.2400        14
    26.5200        20
    26.8000        14
    27.0800        14
    27.3600         8
    27.6400        16
    27.9200        10
    28.2000        14
    28.4800        10
    28.7600        10
    29.0400        16
    29.3200        10
    29.6000        16
    29.8800        18
    30.1600        10
    30.4400        14
    30.7200        14
    31.0000        24
    31.2800        24
    31.5600        28
    31.8400        40
    32.1200        14
    32.4000        16
    32.6800        18
    32.9600        26
    33.2400        66
    33.5200        38
    33.8000        50
    34.0800        26
    34.3600        26
    34.6400        28
    34.9200        22
    35.2000        20
    35.4800        18
    35.7600        28
    36.0400        48
    36.3200        58
    36.6000        28
    36.8800        36
    37.1600        40
    37.4400       158
    37.7200        64
    38.0000        76
    38.2800       114
    38.5600       112
    38.8400        34
    39.1200        28
    39.4000        28
    39.6800        48
    39.9600        32
    40.2400       134
    40.5200       104
    40.8000        42
    41.0800        34
    41.3600        26
    41.6400        24
    41.9200        22
    42.2000        22
    42.4800        16
    42.7600        18
    43.0400        40
    43.3200        34
    43.6000        22
    43.8800        32
    44.1600        30
    44.4400        80
    44.7200       122
    45.0000        50
    45.2800        38
    45.5600       102
    45.8400        44
    46.1200        18
    46.4000        20
    46.6800        14
    46.9600        18
    47.2400        14
    47.5200        20
    47.8000        12
    48.0800        16
    48.3600        16
    48.6400        14
    48.9200        14
    49.2000        18
    49.4800        12
    49.7600        24
    50.0400        16
    50.3200        14
    50.6000        14
    50.8800        16
    51.1600        10
    51.4400        12
    51.7200        10
    52.0000        14
    52.2800        16
    52.5600        14
    52.8400        14
    53.1200        10
    53.4000        12
    53.6800         8
    53.9600        12
    54.2400        12
    54.5200        18
    54.8000        16
    55.0800         6
    55.3600        10
    55.6400        18
    55.9200        12
    56.2000        12
    56.4800        18
    56.7600        20
    57.0400        12
    57.3200        14
    57.6000         2
    57.8800        14
    58.1600        22
    58.4400        44
    58.7200        14
    59.0000        16
    59.2800        26
    59.5600        36
    59.8400        36
    60.1200        32
    60.4000        50
    60.6800        28
    60.9600        12
    61.2400        20
    61.5200        22
    61.8000        16
    62.0800        22
    62.3600        22
    62.6400         8
    62.9200        14
    63.2000         6
    63.4800        14
    63.7600        14
    64.0400        16
    64.3200        12
    64.6000        18
    64.8800        50
    65.1600        52
    65.4400        28
    65.7200        30
    66.0000        32
    66.2800        84
    66.5600        96
    66.8400        36
    67.1200        18
    67.4000         8
    67.6800        16
    67.9600        12
    68.2400        10
    68.5200        20
    68.8000        22
    69.0800        12
    69.3600        18
    69.6400        12
    69.9200        22
    70.2000        16
    70.4800        18
    70.7600        20
    71.0400        22
    71.3200        20
    71.6000        24
    71.8800        20
    72.1600        14
    72.4400        18
    72.7200        18
    73.0000        20
    73.2800        66
    73.5600        60
    73.8400        28
    74.1200        12
    74.4000        16
    74.6800        12
    74.9600        10
    75.2400        22
    75.5200        22
    75.8000        14
    76.0800        14
    76.3600        12
    76.6400         8
    76.9200        12
    77.2000        12
    77.4800        20
    77.7600        26
    78.0400        44
    78.3200        46
    78.6000        20
    78.8800        20
    79.1600        16
    79.4400         4
    79.7200        10
    80.0000        14
    80.2800         8
    80.5600        10
    80.8400        16
    81.1200        10
    81.4000        14
    81.6800        10
    81.9600        14
    82.2400        22
    82.5200        22
    82.8000        12
    83.0800        12
    83.3600        12
    83.6400        10
    83.9200        14
    84.2000        10
    84.4800         8
    84.7600         8
    85.0400         6
    85.3200        10
    85.6000         8
    85.8800        14
    86.1600         6
    86.4400        10
    86.7200        10
    87.0000        14
    87.2800        20
    87.5600        18
    87.8400        12
    88.1200         8
    88.4000        16
    88.6800         6
    88.9600        10
    89.2400         4
    89.5200         8
    89.8000         8
    90.0000        12